{
  "resourceType":"Bundle",
  "type":"transaction",
  "entry":[
    {
      "fullUrl":"urn:uuid:e3c242ee-0f2a-4921-90bf-895c2c4da1f0",
      "resource":{
        "resourceType":"Patient",
        "id":"e3c242ee-0f2a-4921-90bf-895c2c4da1f0",
        "identifier":[
          {
            "type":{
              "coding":[
                {
                  "system":"http://hl7.org/fhir/v2/0203",
                  "code":"MR",
                  "display":"Medical Record Number"
                }
              ],
              "text":"Medical Record Number"
            },
            "value":"bc8f60f4cbde3d6c28974971b6880793"
          }
        ],
        "name":[
          {
            "family":[
              "Peters"
            ],
            "given":[
              "John"
            ]
          }
        ],
        "gender":"male",
        "birthDate":"1991-02-01"
      },
      "request":{
        "method":"PUT",
        "url":"Patient?identifier=bc8f60f4cbde3d6c28974971b6880793"
      }
    },
    {
      "fullUrl":"urn:uuid:3c1f4d74-0eda-47ea-a2fa-69ec474ddae6",
      "resource":{
        "resourceType":"Encounter",
        "id":"3c1f4d74-0eda-47ea-a2fa-69ec474ddae6",
        "status":"finished",
        "type":[
          {
            "coding":[
              {
                "system":"http://www.ama-assn.org/go/cpt",
                "code":"99201"
              }
            ],
            "text":"Encounter, Performed: Office Visit (Code List: 2.16.840.1.113883.3.464.1003.101.12.1001)"
          }
        ],
        "patient":{
          "reference":"urn:uuid:e3c242ee-0f2a-4921-90bf-895c2c4da1f0"
        },
        "period":{
          "start":"2011-11-01T08:00:00-04:00",
          "end":"2011-11-01T09:00:00-04:00"
        }
      },
      "request":{
        "method":"PUT",
        "url":"Encounter?date=sa2011-11-01T07%3A59%3A59-04%3A00\u0026date=lt2011-11-01T08%3A00%3A01-04%3A00\u0026patient=urn%3Auuid%3Ae3c242ee-0f2a-4921-90bf-895c2c4da1f0\u0026type=http%3A%2F%2Fwww.ama-assn.org%2Fgo%2Fcpt%7C99201"
      }
    },
    {
      "fullUrl":"urn:uuid:7a6785f2-14b2-4b03-80c9-020dae2afb70",
      "resource":{
        "resourceType":"Encounter",
        "id":"7a6785f2-14b2-4b03-80c9-020dae2afb70",
        "status":"finished",
        "type":[
          {
            "coding":[
              {
                "system":"http://www.ama-assn.org/go/cpt",
                "code":"99201"
              }
            ],
            "text":"Encounter, Performed: Office Visit (Code List: 2.16.840.1.113883.3.464.1003.101.12.1001)"
          }
        ],
        "patient":{
          "reference":"urn:uuid:e3c242ee-0f2a-4921-90bf-895c2c4da1f0"
        },
        "period":{
          "start":"2012-10-01T08:00:00-04:00",
          "end":"2012-10-01T09:00:00-04:00"
        }
      },
      "request":{
        "method":"PUT",
        "url":"Encounter?date=sa2012-10-01T07%3A59%3A59-04%3A00\u0026date=lt2012-10-01T08%3A00%3A01-04%3A00\u0026patient=urn%3Auuid%3Ae3c242ee-0f2a-4921-90bf-895c2c4da1f0\u0026type=http%3A%2F%2Fwww.ama-assn.org%2Fgo%2Fcpt%7C99201"
      }
    },
    {
      "fullUrl":"urn:uuid:bd720155-b844-40ea-abcd-f930dd8fca44",
      "resource":{
        "resourceType":"Encounter",
        "id":"bd720155-b844-40ea-abcd-f930dd8fca44",
        "status":"finished",
        "type":[
          {
            "coding":[
              {
                "system":"http://www.ama-assn.org/go/cpt",
                "code":"99201"
              }
            ],
            "text":"Encounter, Performed: Office Visit (Code List: 2.16.840.1.113883.3.464.1003.101.12.1001)"
          }
        ],
        "patient":{
          "reference":"urn:uuid:e3c242ee-0f2a-4921-90bf-895c2c4da1f0"
        },
        "period":{
          "start":"2012-11-01T08:00:00-04:00",
          "end":"2012-11-01T09:00:00-04:00"
        }
      },
      "request":{
        "method":"PUT",
        "url":"Encounter?date=sa2012-11-01T07%3A59%3A59-04%3A00\u0026date=lt2012-11-01T08%3A00%3A01-04%3A00\u0026patient=urn%3Auuid%3Ae3c242ee-0f2a-4921-90bf-895c2c4da1f0\u0026type=http%3A%2F%2Fwww.ama-assn.org%2Fgo%2Fcpt%7C99201"
      }
    },
    {
      "fullUrl":"urn:uuid:80dce19a-4706-47a4-beeb-369d5150898a",
      "resource":{
        "resourceType":"Encounter",
        "id":"80dce19a-4706-47a4-beeb-369d5150898a",
        "status":"finished",
        "type":[
          {
            "coding":[
              {
                "system":"http://snomed.info/sct",
                "code":"171047005"
              }
            ],
            "text":"Encounter, Performed: Alcohol and Drug Dependence Treatment (Code List: 2.16.840.1.113883.3.464.1003.106.12.1005)"
          }
        ],
        "patient":{
          "reference":"urn:uuid:e3c242ee-0f2a-4921-90bf-895c2c4da1f0"
        },
        "period":{
          "start":"2012-11-01T08:45:00-04:00",
          "end":"2012-11-01T09:00:00-04:00"
        }
      },
      "request":{
        "method":"PUT",
        "url":"Encounter?date=sa2012-11-01T08%3A44%3A59-04%3A00\u0026date=lt2012-11-01T08%3A45%3A01-04%3A00\u0026patient=urn%3Auuid%3Ae3c242ee-0f2a-4921-90bf-895c2c4da1f0\u0026type=http%3A%2F%2Fsnomed.info%2Fsct%7C171047005"
      }
    },
    {
      "fullUrl":"urn:uuid:b9c7a3eb-e4f2-44ba-990a-1bbb2506375c",
      "resource":{
        "resourceType":"Condition",
        "id":"b9c7a3eb-e4f2-44ba-990a-1bbb2506375c",
        "patient":{
          "reference":"urn:uuid:e3c242ee-0f2a-4921-90bf-895c2c4da1f0"
        },
        "code":{
          "coding":[
            {
              "system":"http://snomed.info/sct",
              "code":"10091002"
            },
            {
              "system":"http://hl7.org/fhir/sid/icd-9",
              "code":"428.0"
            },
            {
              "system":"http://hl7.org/fhir/sid/icd-10",
              "code":"I50.1"
            }
          ],
          "text":"Diagnosis, Active: Heart Failure (Code List: 2.16.840.1.113883.3.526.3.376)"
        },
        "clinicalStatus":"active",
        "verificationStatus":"confirmed",
        "onsetDateTime":"2012-03-01T07:00:00-05:00"
      },
      "request":{
        "method":"PUT",
        "url":"Condition?code=http%3A%2F%2Fhl7.org%2Ffhir%2Fsid%2Ficd-10%7CI50.1%2Chttp%3A%2F%2Fhl7.org%2Ffhir%2Fsid%2Ficd-9%7C428.0%2Chttp%3A%2F%2Fsnomed.info%2Fsct%7C10091002\u0026onset=2012-03-01T07%3A00%3A00-05%3A00\u0026patient=urn%3Auuid%3Ae3c242ee-0f2a-4921-90bf-895c2c4da1f0"
      }
    },
    {
      "fullUrl":"urn:uuid:2fdcac0a-d236-4d1c-ae8a-bb6eb7f442ab",
      "resource":{
        "resourceType":"Condition",
        "id":"2fdcac0a-d236-4d1c-ae8a-bb6eb7f442ab",
        "patient":{
          "reference":"urn:uuid:e3c242ee-0f2a-4921-90bf-895c2c4da1f0"
        },
        "code":{
          "coding":[
            {
              "system":"http://snomed.info/sct",
              "code":"981000124106"
            }
          ],
          "text":"Diagnosis, Active: Moderate or Severe LVSD (Code List: 2.16.840.1.113883.3.526.3.1090)"
        },
        "clinicalStatus":"active",
        "verificationStatus":"confirmed",
        "onsetDateTime":"2012-03-01T07:05:00-05:00"
      },
      "request":{
        "method":"PUT",
        "url":"Condition?code=http%3A%2F%2Fsnomed.info%2Fsct%7C981000124106\u0026onset=2012-03-01T07%3A05%3A00-05%3A00\u0026patient=urn%3Auuid%3Ae3c242ee-0f2a-4921-90bf-895c2c4da1f0"
      }
    },
    {
      "fullUrl":"urn:uuid:4e69c05a-c7aa-49ed-92b2-89aee272244a",
      "resource":{
        "resourceType":"Condition",
        "id":"4e69c05a-c7aa-49ed-92b2-89aee272244a",
        "patient":{
          "reference":"urn:uuid:e3c242ee-0f2a-4921-90bf-895c2c4da1f0"
        },
        "code":{
          "coding":[
            {
              "system":"http://snomed.info/sct",
              "code":"123641001"
            },
            {
              "system":"http://hl7.org/fhir/sid/icd-9",
              "code":"411.0"
            },
            {
              "system":"http://hl7.org/fhir/sid/icd-10",
              "code":"I20.0"
            }
          ],
          "text":"Diagnosis, Active: Ischemic Vascular Disease (Code List: 2.16.840.1.113883.3.464.1003.104.12.1003)"
        },
        "clinicalStatus":"active",
        "verificationStatus":"confirmed",
        "onsetDateTime":"2012-03-01T07:05:00-05:00"
      },
      "request":{
        "method":"PUT",
        "url":"Condition?code=http%3A%2F%2Fhl7.org%2Ffhir%2Fsid%2Ficd-10%7CI20.0%2Chttp%3A%2F%2Fhl7.org%2Ffhir%2Fsid%2Ficd-9%7C411.0%2Chttp%3A%2F%2Fsnomed.info%2Fsct%7C123641001\u0026onset=2012-03-01T07%3A05%3A00-05%3A00\u0026patient=urn%3Auuid%3Ae3c242ee-0f2a-4921-90bf-895c2c4da1f0"
      }
    },
    {
      "fullUrl":"urn:uuid:3bc855ba-3d4d-4df0-8c76-7d0dc2ec0475",
      "resource":{
        "resourceType":"Condition",
        "id":"3bc855ba-3d4d-4df0-8c76-7d0dc2ec0475",
        "patient":{
          "reference":"urn:uuid:e3c242ee-0f2a-4921-90bf-895c2c4da1f0"
        },
        "code":{
          "coding":[
            {
              "system":"http://snomed.info/sct",
              "code":"10725009"
            },
            {
              "system":"http://hl7.org/fhir/sid/icd-9",
              "code":"401.1"
            }
          ],
          "text":"Diagnosis, Active: Hypertension (Code List: 2.16.840.1.113883.3.464.1003.104.12.1016)"
        },
        "clinicalStatus":"active",
        "verificationStatus":"confirmed",
        "onsetDateTime":"2012-03-01T07:30:00-05:00"
      },
      "request":{
        "method":"PUT",
        "url":"Condition?code=http%3A%2F%2Fhl7.org%2Ffhir%2Fsid%2Ficd-9%7C401.1%2Chttp%3A%2F%2Fsnomed.info%2Fsct%7C10725009\u0026onset=2012-03-01T07%3A30%3A00-05%3A00\u0026patient=urn%3Auuid%3Ae3c242ee-0f2a-4921-90bf-895c2c4da1f0"
      }
    },
    {
      "fullUrl":"urn:uuid:f9125ac3-7345-4585-aab1-db7abfbda93a",
      "resource":{
        "resourceType":"Observation",
        "id":"f9125ac3-7345-4585-aab1-db7abfbda93a",
        "status":"final",
        "code":{
          "coding":[
            {
              "system":"http://loinc.org",
              "code":"17856-6"
            }
          ],
          "text":"Laboratory Test, Result: HbA1c Laboratory Test"
        },
        "subject":{
          "reference":"urn:uuid:e3c242ee-0f2a-4921-90bf-895c2c4da1f0"
        },
        "encounter":{
          "reference":"urn:uuid:3c1f4d74-0eda-47ea-a2fa-69ec474ddae6"
        },
        "effectivePeriod":{
          "start":"2011-11-01T08:16:40-04:00",
          "end":"2011-11-01T08:16:40-04:00"
        },
        "valueQuantity":{
          "value":8,
          "unit":"%"
        }
      },
      "request":{
        "method":"PUT",
        "url":"Observation?code=http%3A%2F%2Floinc.org%7C17856-6\u0026date=sa2011-11-01T08%3A16%3A39-04%3A00\u0026date=lt2011-11-01T08%3A16%3A41-04%3A00\u0026patient=urn%3Auuid%3Ae3c242ee-0f2a-4921-90bf-895c2c4da1f0\u0026value-quantity=8%7C%7C%25"
      }
    },
    {
      "fullUrl":"urn:uuid:23ba1dfd-56a1-42eb-928c-ab156bcca6ba",
      "resource":{
        "resourceType":"Procedure",
        "id":"23ba1dfd-56a1-42eb-928c-ab156bcca6ba",
        "subject":{
          "reference":"urn:uuid:e3c242ee-0f2a-4921-90bf-895c2c4da1f0"
        },
        "status":"completed",
        "code":{
          "coding":[
            {
              "system":"http://snomed.info/sct",
              "code":"116783008"
            }
          ],
          "text":"Procedure, Result: Clinical Staging Procedure"
        },
        "performedPeriod":{
          "start":"2011-11-01T08:16:40-04:00",
          "end":"2011-11-01T11:03:20-04:00"
        },
        "encounter":{
          "reference":"urn:uuid:3c1f4d74-0eda-47ea-a2fa-69ec474ddae6"
        },
        "report":[
          {
            "reference":"urn:uuid:8187f11e-9cbe-4ded-854c-c199ce457c05"
          }
        ]
      },
      "request":{
        "method":"PUT",
        "url":"Procedure?code=http%3A%2F%2Fsnomed.info%2Fsct%7C116783008\u0026date=sa2011-11-01T08%3A16%3A39-04%3A00\u0026date=lt2011-11-01T08%3A16%3A41-04%3A00\u0026patient=urn%3Auuid%3Ae3c242ee-0f2a-4921-90bf-895c2c4da1f0"
      }
    },
    {
      "fullUrl":"urn:uuid:8187f11e-9cbe-4ded-854c-c199ce457c05",
      "resource":{
        "resourceType":"DiagnosticReport",
        "id":"8187f11e-9cbe-4ded-854c-c199ce457c05",
        "status":"final",
        "code":{
          "coding":[
            {
              "system":"http://loinc.org",
              "code":"59776-5",
              "display":"Procedure findings narrative"
            }
          ],
          "text":"Procedure findings narrative"
        },
        "subject":{
          "reference":"urn:uuid:e3c242ee-0f2a-4921-90bf-895c2c4da1f0"
        },
        "encounter":{
          "reference":"urn:uuid:3c1f4d74-0eda-47ea-a2fa-69ec474ddae6"
        },
        "effectivePeriod":{
          "start":"2011-11-01T08:16:40-04:00",
          "end":"2011-11-01T11:03:20-04:00"
        },
        "issued":"2011-11-01T11:03:20-04:00",
        "result":[
          {
            "reference":"urn:uuid:14db9366-8cbb-42fe-8d0b-c429034a43b8"
          },
          {
            "reference":"urn:uuid:bb908292-aae9-4f52-a5ba-d52dfde328ad"
          },
          {
            "reference":"urn:uuid:1334be91-29dd-493a-ab24-7aad1a4f024b"
          }
        ]
      },
      "request":{
        "method":"PUT",
        "url":"DiagnosticReport?code=http%3A%2F%2Floinc.org%7C59776-5\u0026date=sa2011-11-01T08%3A16%3A39-04%3A00\u0026date=lt2011-11-01T08%3A16%3A41-04%3A00\u0026patient=urn%3Auuid%3Ae3c242ee-0f2a-4921-90bf-895c2c4da1f0"
      }
    },
    {
      "fullUrl":"urn:uuid:14db9366-8cbb-42fe-8d0b-c429034a43b8",
      "resource":{
        "resourceType":"Observation",
        "id":"14db9366-8cbb-42fe-8d0b-c429034a43b8",
        "status":"final",
        "code":{
          "coding":[
            {
              "system":"http://snomed.info/sct",
              "code":"116783008"
            }
          ],
          "text":"Procedure, Result: Clinical Staging Procedure"
        },
        "subject":{
          "reference":"urn:uuid:e3c242ee-0f2a-4921-90bf-895c2c4da1f0"
        },
        "encounter":{
          "reference":"urn:uuid:3c1f4d74-0eda-47ea-a2fa-69ec474ddae6"
        },
        "effectivePeriod":{
          "start":"2011-11-01T08:16:40-04:00",
          "end":"2011-11-01T11:03:20-04:00"
        },
        "valueCodeableConcept":{
          "coding":[
            {
              "system":"http://snomed.info/sct",
              "code":"433581000124101"
            }
          ],
          "text":"Colon Distant Metastasis Status M0"
        }
      },
      "request":{
        "method":"PUT",
        "url":"Observation?code=http%3A%2F%2Fsnomed.info%2Fsct%7C116783008\u0026date=sa2011-11-01T08%3A16%3A39-04%3A00\u0026date=lt2011-11-01T08%3A16%3A41-04%3A00\u0026patient=urn%3Auuid%3Ae3c242ee-0f2a-4921-90bf-895c2c4da1f0\u0026value-concept=http%3A%2F%2Fsnomed.info%2Fsct%7C433581000124101"
      }
    },
    {
      "fullUrl":"urn:uuid:bb908292-aae9-4f52-a5ba-d52dfde328ad",
      "resource":{
        "resourceType":"Observation",
        "id":"bb908292-aae9-4f52-a5ba-d52dfde328ad",
        "status":"final",
        "code":{
          "coding":[
            {
              "system":"http://snomed.info/sct",
              "code":"116783008"
            }
          ],
          "text":"Procedure, Result: Clinical Staging Procedure"
        },
        "subject":{
          "reference":"urn:uuid:e3c242ee-0f2a-4921-90bf-895c2c4da1f0"
        },
        "encounter":{
          "reference":"urn:uuid:3c1f4d74-0eda-47ea-a2fa-69ec474ddae6"
        },
        "effectivePeriod":{
          "start":"2011-11-01T08:16:40-04:00",
          "end":"2011-11-01T11:03:20-04:00"
        },
        "valueCodeableConcept":{
          "coding":[
            {
              "system":"http://snomed.info/sct",
              "code":"433571000124104"
            }
          ],
          "text":"Colon Cancer Regional Lymph Node Status N2b"
        }
      },
      "request":{
        "method":"PUT",
        "url":"Observation?code=http%3A%2F%2Fsnomed.info%2Fsct%7C116783008\u0026date=sa2011-11-01T08%3A16%3A39-04%3A00\u0026date=lt2011-11-01T08%3A16%3A41-04%3A00\u0026patient=urn%3Auuid%3Ae3c242ee-0f2a-4921-90bf-895c2c4da1f0\u0026value-concept=http%3A%2F%2Fsnomed.info%2Fsct%7C433571000124104"
      }
    },
    {
      "fullUrl":"urn:uuid:1334be91-29dd-493a-ab24-7aad1a4f024b",
      "resource":{
        "resourceType":"Observation",
        "id":"1334be91-29dd-493a-ab24-7aad1a4f024b",
        "status":"final",
        "code":{
          "coding":[
            {
              "system":"http://snomed.info/sct",
              "code":"116783008"
            }
          ],
          "text":"Procedure, Result: Clinical Staging Procedure"
        },
        "subject":{
          "reference":"urn:uuid:e3c242ee-0f2a-4921-90bf-895c2c4da1f0"
        },
        "encounter":{
          "reference":"urn:uuid:3c1f4d74-0eda-47ea-a2fa-69ec474ddae6"
        },
        "effectivePeriod":{
          "start":"2011-11-01T08:16:40-04:00",
          "end":"2011-11-01T11:03:20-04:00"
        },
        "valueCodeableConcept":{
          "coding":[
            {
              "system":"http://snomed.info/sct",
              "code":"433491000124102"
            }
          ],
          "text":"Colon Cancer Primary Tumor Size T4a"
        }
      },
      "request":{
        "method":"PUT",
        "url":"Observation?code=http%3A%2F%2Fsnomed.info%2Fsct%7C116783008\u0026date=sa2011-11-01T08%3A16%3A39-04%3A00\u0026date=lt2011-11-01T08%3A16%3A41-04%3A00\u0026patient=urn%3Auuid%3Ae3c242ee-0f2a-4921-90bf-895c2c4da1f0\u0026value-concept=http%3A%2F%2Fsnomed.info%2Fsct%7C433491000124102"
      }
    },
    {
      "fullUrl":"urn:uuid:2f948fa7-e29f-49c3-8570-fa8c852fb318",
      "resource":{
        "resourceType":"Procedure",
        "id":"2f948fa7-e29f-49c3-8570-fa8c852fb318",
        "subject":{
          "reference":"urn:uuid:e3c242ee-0f2a-4921-90bf-895c2c4da1f0"
        },
        "status":"completed",
        "code":{
          "coding":[
            {
              "system":"http://hl7.org/fhir/sid/icd-10",
              "code":"0210093"
            },
            {
              "system":"http://snomed.info/sct",
              "code":"10190003"
            },
            {
              "system":"http://hl7.org/fhir/sid/icd-9",
              "code":"36.10"
            }
          ],
          "text":"Procedure, Performed: Hospital measures-CABG"
        },
        "performedPeriod":{
          "start":"2013-03-02T10:45:00-05:00",
          "end":"2013-03-02T11:45:00-05:00"
        }
      },
      "request":{
        "method":"PUT",
        "url":"Procedure?code=http%3A%2F%2Fhl7.org%2Ffhir%2Fsid%2Ficd-10%7C0210093%2Chttp%3A%2F%2Fhl7.org%2Ffhir%2Fsid%2Ficd-9%7C36.10%2Chttp%3A%2F%2Fsnomed.info%2Fsct%7C10190003\u0026date=sa2013-03-02T10%3A44%3A59-05%3A00\u0026date=lt2013-03-02T10%3A45%3A01-05%3A00\u0026patient=urn%3Auuid%3Ae3c242ee-0f2a-4921-90bf-895c2c4da1f0"
      }
    },
    {
      "fullUrl":"urn:uuid:3e766221-d86c-4a15-9f39-d7a7fb343b3d",
      "resource":{
        "resourceType":"MedicationStatement",
        "id":"3e766221-d86c-4a15-9f39-d7a7fb343b3d",
        "patient":{
          "reference":"urn:uuid:e3c242ee-0f2a-4921-90bf-895c2c4da1f0"
        },
        "status":"intended",
        "effectivePeriod":{
          "start":"2012-10-01T08:00:00-04:00",
          "end":"2012-10-01T08:00:00-04:00"
        },
        "medicationCodeableConcept":{
          "coding":[
            {
              "system":"http://www.nlm.nih.gov/research/umls/rxnorm/",
              "code":"1000048"
            }
          ],
          "text":"Medication, Order: BH Antidepressant medication (Code List: 2.16.840.1.113883.3.1257.1.972)"
        }
      },
      "request":{
        "method":"PUT",
        "url":"MedicationStatement?code=http%3A%2F%2Fwww.nlm.nih.gov%2Fresearch%2Fumls%2Frxnorm%2F%7C1000048\u0026effective=sa2012-10-01T07%3A59%3A59-04%3A00\u0026effective=lt2012-10-01T08%3A00%3A01-04%3A00\u0026patient=urn%3Auuid%3Ae3c242ee-0f2a-4921-90bf-895c2c4da1f0"
      }
    },
    {
      "fullUrl":"urn:uuid:e7fa8bfb-11aa-489d-a09b-fb73c06e2fb4",
      "resource":{
        "resourceType":"Immunization",
        "id":"e7fa8bfb-11aa-489d-a09b-fb73c06e2fb4",
        "status":"completed",
        "date":"2011-08-15T08:00:00-04:00",
        "vaccineCode":{
          "coding":[
            {
              "system":"http://www2a.cdc.gov/vaccines/iis/iisstandards/vaccines.asp?rpt=cvx",
              "code":"33"
            }
          ],
          "text":"Medication, Administered: Pneumococcal Vaccine (Code List: 2.16.840.1.113883.3.464.1003.110.12.1027)"
        },
        "patient":{
          "reference":"urn:uuid:e3c242ee-0f2a-4921-90bf-895c2c4da1f0"
        }
      },
      "request":{
        "method":"PUT",
        "url":"Immunization?date=2011-08-15T08%3A00%3A00-04%3A00\u0026patient=urn%3Auuid%3Ae3c242ee-0f2a-4921-90bf-895c2c4da1f0\u0026vaccine-code=http%3A%2F%2Fwww2a.cdc.gov%2Fvaccines%2Fiis%2Fiisstandards%2Fvaccines.asp%3Frpt%3Dcvx%7C33"
      }
    },
    {
      "fullUrl":"urn:uuid:d9b99e81-39d6-4625-ba34-008b709f2045",
      "resource":{
        "resourceType":"Immunization",
        "id":"d9b99e81-39d6-4625-ba34-008b709f2045",
        "status":"completed",
        "date":"2010-01-10T19:08:28-05:00",
        "vaccineCode":{
          "coding":[
            {
              "system":"http://www2a.cdc.gov/vaccines/iis/iisstandards/vaccines.asp?rpt=cvx",
              "code":"03"
            }
          ],
          "text":"MMR"
        },
        "patient":{
          "reference":"urn:uuid:e3c242ee-0f2a-4921-90bf-895c2c4da1f0"
        },
        "vaccinationProtocol":[
          {
            "doseSequence":2
          }
        ]
      },
      "request":{
        "method":"PUT",
        "url":"Immunization?date=2010-01-10T19%3A08%3A28-05%3A00\u0026patient=urn%3Auuid%3Ae3c242ee-0f2a-4921-90bf-895c2c4da1f0\u0026vaccine-code=http%3A%2F%2Fwww2a.cdc.gov%2Fvaccines%2Fiis%2Fiisstandards%2Fvaccines.asp%3Frpt%3Dcvx%7C03"
      }
    },
    {
      "fullUrl":"urn:uuid:c46dd0bc-555d-4da8-ac14-be763688d05f",
      "resource":{
        "resourceType":"AllergyIntolerance",
        "id":"c46dd0bc-555d-4da8-ac14-be763688d05f",
        "onset":"2012-01-01T00:42:00-05:00",
        "patient":{
          "reference":"urn:uuid:e3c242ee-0f2a-4921-90bf-895c2c4da1f0"
        },
        "substance":{
          "coding":[
            {
              "system":"http://www2a.cdc.gov/vaccines/iis/iisstandards/vaccines.asp?rpt=cvx",
              "code":"111"
            }
          ],
          "text":"Medication, Allergy: Influenza Vaccine (Code List: 2.16.840.1.113883.3.526.3.1254)"
        },
        "status":"active",
        "criticality":"CRITH",
        "reaction":[
          {
            "substance":{
              "coding":[
                {
                  "system":"http://www2a.cdc.gov/vaccines/iis/iisstandards/vaccines.asp?rpt=cvx",
                  "code":"111"
                }
              ],
              "text":"Medication, Allergy: Influenza Vaccine (Code List: 2.16.840.1.113883.3.526.3.1254)"
            },
            "manifestation":[
              {
                "coding":[
                  {
                    "system":"http://snomed.info/sct",
                    "code":"421581006"
                  }
                ]
              }
            ],
            "onset":"2012-01-01T00:42:00-05:00",
            "severity":"severe"
          }
        ]
      },
      "request":{
        "method":"PUT",
        "url":"AllergyIntolerance?onset=2012-01-01T00%3A42%3A00-05%3A00\u0026patient=urn%3Auuid%3Ae3c242ee-0f2a-4921-90bf-895c2c4da1f0\u0026substance=http%3A%2F%2Fwww2a.cdc.gov%2Fvaccines%2Fiis%2Fiisstandards%2Fvaccines.asp%3Frpt%3Dcvx%7C111"
      }
    }
  ]
}